# ¬рем€(пс), темп(K), ≈п  ≈к  ≈полн (кƒж/моль)
   0.000  119.331    0.356    1.488    1.843
   0.108  155.168   -0.114    1.934    1.820
   0.216  151.873   -0.094    1.893    1.799
   0.325  149.309   -0.081    1.861    1.780
   0.433  147.712   -0.079    1.841    1.762
   0.541  146.911   -0.087    1.831    1.745
   0.649  145.549   -0.086    1.814    1.728
   0.758  144.322   -0.087    1.799    1.712
   0.866  143.318   -0.090    1.787    1.697
   0.974  141.950   -0.087    1.769    1.682
   1.082  139.929   -0.075    1.744    1.669
   1.191  141.148   -0.104    1.759    1.656
   1.299  139.896   -0.101    1.744    1.643
   1.407  138.052   -0.091    1.721    1.630
   1.515  139.240   -0.117    1.736    1.619
   1.624  139.373   -0.131    1.737    1.607
   1.732  138.332   -0.130    1.724    1.595
   1.840  137.167   -0.127    1.710    1.583
   1.948  136.520   -0.129    1.702    1.573
   2.057  137.545   -0.153    1.715    1.562
   2.165  136.567   -0.152    1.702    1.551
   2.273  136.434   -0.161    1.701    1.540
   2.381  134.689   -0.149    1.679    1.530
   2.490  135.637   -0.170    1.691    1.520
   2.598  134.083   -0.161    1.671    1.511
   2.706  133.746   -0.165    1.667    1.502
   2.814  132.095   -0.153    1.647    1.493
   2.923  131.051   -0.148    1.634    1.486
   3.031  131.679   -0.163    1.641    1.479
   3.139  132.097   -0.176    1.647    1.471
   3.247  130.628   -0.165    1.628    1.464
   3.356  131.314   -0.180    1.637    1.457
   3.464  130.708   -0.180    1.629    1.449
   3.572  130.623   -0.186    1.628    1.443
   3.680  131.581   -0.205    1.640    1.435
   3.789  128.651   -0.175    1.604    1.428
   3.897  129.597   -0.192    1.616    1.423
   4.005  131.452   -0.223    1.639    1.416
   4.113  130.734   -0.221    1.630    1.409
   4.222  128.515   -0.200    1.602    1.402
   4.330  129.056   -0.212    1.609    1.397
   4.438  129.418   -0.223    1.613    1.391
   4.546  124.320   -0.164    1.550    1.386
   4.655  128.628   -0.222    1.603    1.381
   4.763  125.200   -0.184    1.561    1.376
   4.871  125.094   -0.186    1.559    1.374
   4.979  127.125   -0.215    1.585    1.369
   5.088  125.585   -0.200    1.565    1.365
   5.196  125.291   -0.200    1.562    1.361
   5.304  125.404   -0.205    1.563    1.358
   5.412  124.132   -0.193    1.547    1.354
   5.521  123.936   -0.193    1.545    1.352
   5.629  123.511   -0.191    1.540    1.349
   5.737  123.394   -0.191    1.538    1.347
   5.845  123.726   -0.198    1.542    1.344
   5.954  122.728   -0.188    1.530    1.342
   6.062  121.030   -0.168    1.509    1.341
   6.170  123.202   -0.197    1.536    1.339
   6.278  118.815   -0.143    1.481    1.338
   6.387  121.181   -0.173    1.511    1.338
   6.495  120.472   -0.165    1.502    1.337
   6.603  120.497   -0.166    1.502    1.336
   6.711  120.102   -0.161    1.497    1.336
   6.820  120.099   -0.162    1.497    1.336
   6.928  120.417   -0.166    1.501    1.335
   7.036  120.664   -0.170    1.504    1.335
   7.144  121.521   -0.181    1.515    1.334
   7.253  122.323   -0.193    1.525    1.332
   7.361  122.533   -0.197    1.527    1.330
   7.469  121.915   -0.191    1.520    1.329
   7.577  124.623   -0.227    1.553    1.327
   7.686  125.467   -0.241    1.564    1.323
   7.794  125.443   -0.244    1.564    1.319
   7.902  124.467   -0.236    1.552    1.316
   8.010  123.725   -0.229    1.542    1.313
   8.119  123.762   -0.232    1.543    1.311
   8.227  124.550   -0.245    1.553    1.308
   8.335  125.118   -0.255    1.560    1.304
   8.443  123.701   -0.241    1.542    1.301
   8.552  123.768   -0.244    1.543    1.299
   8.660  122.822   -0.235    1.531    1.296
   8.768  121.364   -0.218    1.513    1.295
   8.876  121.210   -0.218    1.511    1.293
   8.985  121.392   -0.220    1.513    1.293
   9.093  120.036   -0.204    1.496    1.293
   9.201  119.900   -0.202    1.495    1.293
   9.309  120.495   -0.210    1.502    1.292
   9.418  118.533   -0.185    1.478    1.292
   9.526  118.890   -0.189    1.482    1.293
   9.634  119.121   -0.192    1.485    1.293
   9.742  118.533   -0.184    1.478    1.294
   9.851  118.839   -0.187    1.481    1.294
   9.959  119.230   -0.192    1.486    1.294
  10.067  113.585   -0.119    1.416    1.297
  10.175  120.056   -0.199    1.497    1.297
  10.284  120.340   -0.203    1.500    1.297
  10.392  120.107   -0.201    1.497    1.297
  10.500  119.741   -0.196    1.493    1.296
  10.608  119.654   -0.195    1.492    1.296
  10.717  120.654   -0.208    1.504    1.296
