# time(ps), temp(K), en  ek  etot in (kJ/mol)
   0.000  119.331    0.356    1.488    1.843
   0.108  156.425   -0.114    1.950    1.836
   0.216  154.821   -0.094    1.930    1.836
   0.325  153.792   -0.081    1.917    1.836
   0.433  153.654   -0.079    1.915    1.836
   0.541  154.253   -0.087    1.923    1.836
   0.649  154.224   -0.086    1.922    1.836
   0.758  154.270   -0.087    1.923    1.836
   0.866  154.469   -0.089    1.926    1.836
   0.974  153.939   -0.083    1.919    1.836
   1.082  153.652   -0.079    1.915    1.836
   1.191  155.337   -0.100    1.936    1.836
   1.299  155.783   -0.106    1.942    1.836
   1.407  152.721   -0.067    1.904    1.836
   1.515  157.252   -0.124    1.960    1.836
   1.624  157.495   -0.127    1.963    1.836
   1.732  157.272   -0.124    1.960    1.836
   1.840  156.766   -0.118    1.954    1.836
   1.948  158.452   -0.139    1.975    1.836
   2.057  159.341   -0.150    1.986    1.836
   2.165  159.910   -0.157    1.993    1.836
   2.273  158.864   -0.144    1.980    1.836
   2.381  159.948   -0.158    1.994    1.836
   2.490  160.028   -0.159    1.995    1.836
   2.598  160.946   -0.170    2.006    1.836
   2.706  160.019   -0.159    1.995    1.836
   2.814  158.248   -0.136    1.973    1.836
   2.923  161.071   -0.172    2.008    1.836
   3.031  161.212   -0.173    2.010    1.836
   3.139  160.926   -0.170    2.006    1.836
   3.247  159.947   -0.158    1.994    1.836
   3.356  160.320   -0.162    1.998    1.836
   3.464  162.491   -0.189    2.026    1.836
   3.572  160.051   -0.159    1.995    1.836
   3.680  159.120   -0.147    1.984    1.836
   3.789  161.856   -0.181    2.018    1.836
   3.897  161.687   -0.179    2.016    1.836
   4.005  161.941   -0.183    2.019    1.836
   4.113  162.487   -0.189    2.025    1.836
   4.222  155.969   -0.108    1.944    1.836
   4.330  162.221   -0.186    2.022    1.836
   4.438  161.439   -0.176    2.012    1.836
   4.546  161.806   -0.181    2.017    1.836
   4.655  161.353   -0.175    2.011    1.836
   4.763  162.330   -0.187    2.024    1.836
   4.871  162.148   -0.185    2.021    1.836
   4.979  161.279   -0.174    2.010    1.836
   5.088  157.273   -0.124    1.960    1.836
   5.196  159.740   -0.155    1.991    1.836
   5.304  159.544   -0.153    1.989    1.836
   5.412  158.829   -0.144    1.980    1.836
   5.521  154.929   -0.095    1.931    1.836
   5.629  156.345   -0.113    1.949    1.836
   5.737  156.349   -0.113    1.949    1.836
   5.845  156.499   -0.115    1.951    1.836
   5.954  157.399   -0.126    1.962    1.836
   6.062  157.604   -0.128    1.965    1.836
   6.170  154.860   -0.094    1.930    1.836
   6.278  159.100   -0.147    1.983    1.836
   6.387  159.782   -0.156    1.992    1.836
   6.495  160.299   -0.162    1.998    1.836
   6.603  159.398   -0.151    1.987    1.836
   6.711  160.078   -0.159    1.995    1.836
   6.820  161.810   -0.181    2.017    1.836
   6.928  161.459   -0.177    2.013    1.836
   7.036  163.216   -0.198    2.035    1.836
   7.144  163.960   -0.208    2.044    1.836
   7.253  163.359   -0.200    2.036    1.836
   7.361  162.664   -0.191    2.028    1.836
   7.469  164.116   -0.210    2.046    1.836
   7.577  162.396   -0.188    2.024    1.836
   7.686  163.358   -0.200    2.036    1.836
   7.794  162.842   -0.194    2.030    1.836
   7.902  162.215   -0.186    2.022    1.836
   8.010  160.951   -0.170    2.006    1.836
   8.119  162.152   -0.185    2.021    1.836
   8.227  161.928   -0.182    2.019    1.836
   8.335  158.697   -0.142    1.978    1.836
   8.443  160.798   -0.168    2.004    1.836
   8.552  160.718   -0.167    2.003    1.836
   8.660  160.419   -0.164    2.000    1.836
   8.768  157.890   -0.132    1.968    1.836
   8.876  159.289   -0.150    1.986    1.836
   8.985  159.119   -0.147    1.984    1.836
   9.093  159.829   -0.156    1.992    1.836
   9.201  159.755   -0.155    1.991    1.836
   9.309  160.631   -0.166    2.002    1.836
   9.418  157.731   -0.130    1.966    1.836
   9.526  160.415   -0.164    2.000    1.836
   9.634  161.366   -0.175    2.012    1.836
   9.742  161.764   -0.180    2.016    1.836
   9.851  158.685   -0.142    1.978    1.836
   9.959  162.446   -0.189    2.025    1.836
  10.067  161.933   -0.182    2.019    1.836
  10.175  161.609   -0.178    2.015    1.836
  10.284  162.098   -0.184    2.021    1.836
  10.392  162.182   -0.186    2.022    1.836
  10.500  162.745   -0.193    2.029    1.836
  10.608  162.596   -0.191    2.027    1.836
  10.717  161.909   -0.182    2.018    1.836
